aX,aY,aZ,gX,gY,gZ
-0.652,0.577,-2.502,32.410,290.771,33.630
-0.643,0.397,-3.014,51.758,252.991,19.653
-0.602,0.270,-3.103,54.016,177.551,21.362
-0.537,0.448,-2.793,42.419,96.558,38.147
-0.488,0.686,-2.311,39.551,34.729,51.636
-0.470,0.822,-2.020,30.701,10.254,48.706
-0.460,0.874,-1.980,17.761,10.803,37.476
-0.449,0.814,-2.110,4.272,18.433,21.179
-0.474,0.646,-2.318,-5.554,20.813,5.188
-0.499,0.470,-2.506,-11.230,12.390,-4.761
-0.526,0.343,-2.622,-11.536,-6.836,-8.179
-0.546,0.281,-2.606,-8.118,-33.997,-7.446
-0.569,0.265,-2.454,-3.418,-65.186,-4.395
-0.567,0.318,-2.369,-0.183,-90.576,-2.380
-0.554,0.251,-2.174,4.517,-116.089,-2.808
-0.515,0.250,-1.910,-2.930,-142.883,-0.610
-0.494,0.338,-1.659,-20.813,-161.804,8.789
-0.465,0.419,-1.396,-26.306,-175.903,14.282
-0.449,0.425,-1.141,-20.325,-187.378,13.733
-0.398,0.496,-0.953,-28.442,-188.965,15.991
-0.331,0.586,-0.879,-39.612,-182.068,19.470
-0.255,0.624,-0.852,-41.992,-177.246,16.296
-0.190,0.572,-0.793,-38.025,-178.833,6.348
-0.147,0.454,-0.679,-29.907,-185.852,-4.028
-0.115,0.335,-0.485,-27.954,-196.106,-9.827
-0.086,0.239,-0.218,-33.569,-205.017,-9.277
-0.051,0.167,0.049,-46.082,-204.834,-2.930
0.002,0.161,0.267,-61.707,-192.383,8.606
0.082,0.232,0.372,-70.923,-168.274,22.461
0.155,0.346,0.396,-75.195,-136.414,32.166
0.202,0.430,0.319,-69.824,-102.661,33.386
0.229,0.423,0.157,-56.213,-71.777,26.367
0.244,0.356,-0.022,-39.978,-50.415,16.724
0.245,0.290,-0.125,-31.677,-40.527,9.949
0.242,0.227,-0.131,-30.945,-38.025,5.432
0.229,0.192,-0.103,-35.645,-36.621,3.357
0.233,0.213,-0.073,-40.649,-32.166,2.625
0.249,0.249,-0.092,-39.185,-23.499,-1.587
0.234,0.210,-0.121,-27.344,-13.733,-13.000
0.206,0.061,-0.139,-10.620,-5.737,-30.396
0.150,-0.152,-0.121,5.249,1.343,-45.959
0.099,-0.400,-0.070,18.127,10.620,-53.589
0.074,-0.641,-0.007,26.733,24.719,-51.758
0.035,-0.771,-0.034,31.921,49.011,-37.537
0.002,-0.725,-0.248,28.259,81.787,-12.756
0.001,-0.530,-0.595,17.029,112.061,13.245
0.001,-0.316,-0.963,10.071,130.798,32.410
-0.024,-0.152,-1.333,11.108,136.292,42.786
-0.051,-0.049,-1.658,8.545,125.793,47.119
-0.037,0.029,-1.767,3.296,95.459,49.316
-0.009,0.150,-1.523,5.981,52.917,50.049
-0.003,0.256,-1.180,4.456,25.024,46.997
-0.025,0.295,-1.026,2.075,24.414,39.124
-0.027,0.274,-1.063,6.531,37.659,28.687
-0.032,0.183,-1.185,12.085,49.500,17.761
-0.011,0.109,-1.298,10.315,53.223,10.803
0.004,0.073,-1.352,3.906,48.218,8.301
0.003,0.081,-1.332,-4.395,36.926,7.751
0.000,0.109,-1.279,-10.803,23.560,6.165
-0.006,0.093,-1.203,-9.521,8.911,1.282
0.008,0.046,-1.125,-4.395,-6.470,-4.578
-0.026,-0.040,-1.061,1.282,-21.057,-9.766
-0.031,-0.107,-0.956,4.211,-37.964,-11.047
-0.012,-0.103,-0.849,-0.793,-52.307,-8.057
-0.046,-0.009,-0.730,-13.367,-63.232,-3.967
0.026,0.038,-0.562,-21.912,-69.580,-3.784
0.059,0.121,-0.510,-15.686,-65.430,-5.554
0.105,0.136,-0.564,-4.456,-55.847,-11.169
0.147,0.088,-0.569,5.798,-55.359,-21.606
0.208,-0.005,-0.498,6.409,-61.523,-32.349
0.245,-0.100,-0.388,-1.099,-66.650,-38.025
0.296,-0.079,-0.350,-15.503,-64.026,-33.997
0.298,-0.063,-0.553,-19.653,-52.307,-27.649
0.274,-0.066,-0.922,-8.301,-45.654,-26.489
0.259,-0.076,-1.073,-3.296,-63.293,-26.062
0.224,-0.080,-0.993,-11.414,-96.130,-23.987
0.189,-0.067,-0.844,-22.278,-123.474,-18.433
0.160,-0.062,-0.649,-30.640,-140.991,-12.207
0.196,-0.065,-0.475,-41.748,-148.804,-5.920
0.302,0.034,-0.242,-59.692,-146.118,0.854
0.456,0.224,-0.169,-50.537,-134.521,5.981
0.507,0.360,-0.194,-45.227,-118.347,1.404
0.517,0.454,-0.218,-31.616,-105.652,-11.353
0.447,0.419,-0.196,-16.663,-95.764,-33.020
0.396,0.113,-0.165,1.953,-83.435,-65.125
0.441,-0.261,-0.156,7.019,-65.369,-91.309
0.460,-0.378,-0.192,-14.709,-44.495,-90.454
0.422,-0.276,-0.236,-40.649,-23.865,-69.153
0.434,-0.021,-0.466,-44.922,-0.427,-46.265
0.454,0.143,-0.755,-38.086,16.907,-40.588
0.494,0.100,-1.047,-22.522,21.240,-52.368
0.573,0.003,-1.319,-3.052,10.132,-62.622
0.621,0.085,-1.316,0.427,-16.418,-60.425
0.622,0.234,-1.094,-7.385,-41.077,-58.228
0.494,0.396,-0.820,-34.729,-47.363,-60.974
0.250,0.125,-0.520,-53.894,-38.452,-78.064
-0.047,-0.708,-0.241,-54.871,-8.911,-109.924
-0.345,-1.686,-0.083,-55.481,51.941,-118.347
-0.355,-2.025,-0.578,-52.124,141.846,-61.035
0.056,-1.350,-1.671,-64.392,212.341,61.890
0.354,0.144,-2.662,-105.469,207.458,197.693
0.609,1.727,-2.956,-123.657,114.502,264.282
0.855,2.720,-2.311,-82.947,-32.349,232.239
0.755,2.548,-0.799,-86.853,-178.284,131.531
0.647,1.925,0.620,-143.738,-254.883,25.635
0.628,1.430,1.668,-205.444,-250.977,-45.532
0.545,1.021,2.535,-263.489,-185.913,-97.412
0.289,0.351,2.707,-239.075,-62.744,-151.978
0.034,-0.575,1.647,-126.465,95.825,-200.195
-0.207,-1.258,0.287,-52.307,216.125,-204.346
-0.382,-1.687,-0.439,-18.738,248.047,-173.889
-0.432,-1.943,-0.789,49.133,238.342,-133.362
-0.513,-2.149,-1.017,126.831,219.177,-92.102
-0.624,-2.309,-1.185,136.169,191.589,-40.222
-0.517,-2.111,-0.926,37.781,138.306,40.710
-0.437,-1.067,-0.387,-53.955,65.552,146.545
0.026,0.095,0.147,-125.183,18.250,221.313
0.247,1.144,0.181,-106.873,16.052,235.229
0.214,1.806,-0.077,-75.073,40.344,180.603
0.148,1.220,0.036,-69.946,43.335,53.772
-0.169,-0.202,0.489,-75.195,43.640,-76.477
-0.565,-1.101,0.682,-106.934,89.600,-124.939
-0.705,-1.066,0.377,-139.893,162.720,-90.210
-0.600,-0.480,-0.593,-154.724,242.249,-28.870
-0.422,0.016,-1.672,-147.949,292.542,-1.160
-0.365,0.362,-2.401,-115.906,284.607,-0.916
-0.550,0.462,-2.751,-62.195,229.614,-20.447
-0.854,0.065,-2.399,-2.563,146.057,-62.012
-1.272,-0.465,-1.707,39.795,79.468,-98.938
-1.500,-0.850,-1.088,75.439,64.819,-112.793
-1.672,-0.910,-0.843,92.651,95.947,-99.792
-1.454,-0.682,-0.659,63.843,134.033,-75.867
-1.206,-0.097,-0.764,48.889,163.330,-47.302
-0.628,0.665,-1.340,3.662,181.885,-23.682
-0.394,1.050,-1.889,19.043,166.077,-33.813
-0.101,0.977,-2.721,69.458,141.724,-78.430
-0.353,0.600,-3.597,160.156,111.023,-153.259
-0.400,-0.163,-3.977,231.506,76.172,-244.995
-0.687,-0.918,-3.570,252.991,22.522,-307.434
-0.758,-2.019,-2.393,182.129,-32.837,-305.725
-0.894,-2.941,-1.014,60.608,-62.439,-209.167
-1.121,-2.498,0.042,32.166,-54.993,-30.151
-1.088,-1.060,-0.161,-4.028,-10.498,159.729
-0.834,0.884,-0.895,-125.305,20.386,285.034
-0.640,2.060,-1.011,-192.322,8.728,260.925
-0.739,1.332,-1.270,-266.602,-20.508,102.539
-0.541,-0.081,-0.905,-377.319,-59.509,-46.143
-0.554,-1.208,-0.641,-429.626,-34.729,-104.004
-0.702,-1.535,-0.940,-382.690,39.307,-80.627
-0.922,-1.250,-1.989,-280.884,127.502,-39.063
-1.276,-0.926,-3.298,-240.967,169.800,-26.428
-1.578,-1.117,-3.740,-222.168,101.990,-56.213
-1.973,-1.437,-2.603,-93.994,-62.378,-81.604
-1.940,-1.821,-0.637,12.207,-204.163,-61.462
-1.376,-1.835,1.220,-100.037,-224.792,5.310
-1.273,-1.180,1.702,-138.916,-106.567,91.553
-1.223,-0.805,0.619,-30.151,64.270,120.667
-0.883,-0.934,-1.160,16.479,191.284,103.882
-0.788,-1.070,-2.162,-38.574,219.727,90.271
-0.649,-0.921,-1.907,-92.041,165.161,90.881
-0.827,-0.594,-1.271,-121.033,103.760,96.313
-0.812,-0.306,-1.202,-132.874,76.294,92.834
-0.801,-0.411,-0.996,-206.482,51.086,72.693
-0.842,-0.504,-0.653,-231.567,22.339,63.782
-0.599,-0.083,-0.774,-254.517,16.846,76.843
-0.400,0.300,-1.034,-263.367,16.052,69.214
-0.242,0.176,-0.998,-252.075,-9.155,18.433
-0.061,-0.361,-0.725,-216.980,-31.311,-43.579
0.109,-0.921,-0.629,-154.236,-24.353,-94.360
0.101,-1.461,-1.039,-69.275,9.033,-132.019
-0.281,-2.086,-1.659,-9.949,30.640,-159.668
-0.369,-2.909,-0.893,-13.306,12.817,-164.368
-0.477,-2.854,-0.622,-2.380,27.527,-116.760
-0.677,-2.175,-0.996,-7.446,62.805,-48.889
-0.702,-1.752,-0.850,-38.025,51.331,-22.400
-0.723,-1.376,-0.301,-84.534,20.020,-16.846
-0.759,-1.075,0.105,-109.985,6.531,-10.193
-0.728,-0.858,0.146,-103.821,13.062,-5.310
-0.651,-0.741,0.026,-88.196,21.545,-4.150
-0.617,-0.739,-0.025,-71.533,22.888,-5.554
-0.534,-0.893,-0.061,-64.209,19.958,-4.761
-0.420,-1.175,-0.229,-38.452,23.865,-2.808
-0.365,-1.354,-0.479,-12.146,33.936,7.080
-0.367,-1.222,-0.614,-3.296,31.372,31.250
-0.414,-0.943,-0.479,-6.714,8.606,62.012
-0.382,-0.666,-0.177,-14.404,-20.081,90.332
-0.379,-0.616,0.020,-21.606,-31.860,107.483
-0.420,-0.690,0.020,-23.254,-22.278,113.586
-0.341,-0.788,-0.186,-12.207,-2.991,114.075
-0.298,-0.826,-0.560,7.019,14.160,111.755
-0.258,-0.860,-0.913,2.502,21.179,108.215
-0.306,-0.989,-1.077,11.292,12.207,97.778
-0.381,-1.152,-0.877,27.893,-10.010,86.060
-0.450,-1.167,-0.590,5.798,-29.785,88.013
-0.429,-0.987,-0.453,-36.743,-31.555,103.699
-0.370,-0.648,-0.552,-63.416,-17.639,117.737
-0.161,-0.364,-0.609,-67.505,-5.493,113.464
0.125,-0.240,-0.458,-59.814,-0.427,92.834
0.219,-0.177,-0.342,-56.946,2.563,65.063
0.092,-0.127,-0.288,-57.556,6.287,35.156
-0.162,-0.202,-0.158,-55.176,2.563,4.333
-0.334,-0.476,0.099,-57.678,-4.578,-24.658
-0.476,-0.830,0.327,-54.932,-3.479,-42.847
-0.501,-1.085,0.218,-58.289,13.489,-46.997
-0.347,-1.299,-0.027,-65.063,31.128,-43.823
-0.206,-1.433,-0.356,-59.387,37.109,-36.011
-0.157,-1.546,-0.578,-64.941,28.748,-30.762
-0.136,-1.556,-0.623,-67.139,5.920,-20.935
-0.321,-1.629,-0.601,-84.717,-22.644,3.784
0.078,-1.495,-0.409,-129.211,-53.162,58.472
0.119,-0.882,-0.357,-198.425,-64.880,130.493
0.165,-0.538,-0.386,-240.967,-66.833,155.029
0.250,-0.473,-0.414,-216.858,-75.867,143.982
0.127,-0.303,-0.388,-204.529,-93.506,135.986
0.079,-0.056,-0.430,-216.431,-115.112,125.610
-0.029,-0.088,-0.393,-207.275,-145.142,95.764
-0.059,-0.314,-0.142,-181.580,-177.307,54.504
-0.160,-0.532,0.104,-123.535,-198.853,13.611
-0.273,-0.866,0.279,-109.314,-200.989,-24.719
-0.339,-1.110,0.399,-124.084,-190.063,-50.049
-0.363,-1.160,0.509,-140.076,-169.617,-52.856
-0.070,-1.139,0.627,-141.663,-138.672,-40.833
0.231,-1.224,0.693,-73.792,-98.999,-31.006
0.208,-1.437,0.586,3.357,-55.115,-29.114
0.022,-1.646,0.396,52.612,-19.836,-21.667
-0.250,-1.627,0.282,60.913,1.160,-0.977
-0.388,-1.334,0.364,31.372,11.047,21.057
-0.350,-1.077,0.442,5.310,22.461,26.489
-0.355,-0.905,0.277,-2.808,38.391,19.775
-0.323,-0.713,-0.009,-7.446,46.143,12.085
-0.226,-0.587,-0.165,-17.822,34.912,1.587
-0.143,-0.652,-0.098,-18.311,10.742,-12.146
-0.120,-0.815,0.020,-7.935,-9.583,-23.560
-0.114,-1.015,0.126,1.648,-20.264,-33.569
-0.086,-1.207,0.195,-0.366,-23.071,-41.382
-0.113,-1.377,0.218,-12.268,-21.912,-44.861
-0.164,-1.392,0.207,-30.273,-19.104,-38.940
-0.173,-1.237,0.152,-52.551,-16.479,-23.193
-0.183,-1.017,0.073,-73.120,-16.724,-7.507
-0.130,-0.897,0.040,-79.468,-22.705,-2.747
-0.133,-0.876,0.083,-65.552,-31.921,-6.042
-0.130,-0.911,0.180,-50.964,-37.537,-12.634
-0.116,-0.952,0.238,-34.973,-35.034,-16.846
-0.124,-1.046,0.231,-12.207,-28.076,-20.630
-0.164,-1.167,0.163,-0.244,-21.423,-22.583
-0.171,-1.234,0.137,-3.357,-20.264,-17.090
-0.258,-1.214,0.142,-14.221,-24.109,-6.287
-0.300,-1.089,0.176,-37.598,-28.015,6.470
-0.347,-0.949,0.238,-60.608,-29.541,15.259
-0.291,-0.897,0.266,-68.787,-28.931,13.306
-0.240,-0.934,0.277,-63.049,-27.954,4.089
-0.230,-0.978,0.296,-58.899,-26.794,-3.967
-0.228,-1.002,0.327,-51.575,-23.743,-7.629
-0.222,-1.015,0.329,-35.400,-17.944,-8.240
-0.235,-0.998,0.304,-20.935,-10.498,-5.920
-0.259,-0.984,0.261,-12.268,-3.357,-3.967
-0.263,-1.023,0.235,-2.014,1.953,-3.235
-0.241,-1.089,0.226,4.639,5.859,-1.770
-0.205,-1.071,0.164,4.211,9.705,2.930
-0.169,-0.995,0.104,1.282,10.498,7.568
-0.167,-0.936,0.072,-5.859,6.775,8.911
-0.209,-0.910,0.070,-13.062,-0.366,7.935
-0.174,-0.920,0.143,-20.691,-7.507,7.507
-0.144,-0.903,0.252,-23.743,-10.864,8.850
-0.155,-0.909,0.356,-18.738,-9.827,7.935
-0.200,-0.995,0.384,-20.325,-3.906,4.517
-0.236,-0.981,0.283,-26.978,3.784,5.859
-0.289,-0.976,0.276,-25.085,4.395,8.362
-0.341,-1.003,0.299,-25.757,1.221,8.057
-0.329,-1.042,0.371,-27.161,-0.916,8.484
-0.288,-1.086,0.428,-15.198,1.160,9.949
-0.244,-1.065,0.399,4.944,8.789,14.038
-0.195,-1.025,0.282,17.090,17.395,18.188
-0.140,-0.979,0.230,16.479,20.264,21.423
-0.100,-0.916,0.218,12.024,19.165,22.278
-0.073,-0.900,0.208,10.681,16.174,17.761
-0.065,-0.965,0.231,3.723,11.658,10.437
-0.075,-1.013,0.250,-4.700,7.751,7.202
-0.086,-1.031,0.210,-15.015,2.747,8.545
-0.124,-1.010,0.272,-33.752,-4.089,12.268
-0.179,-0.986,0.369,-58.594,-7.263,17.029
-0.153,-0.966,0.386,-82.336,-6.348,21.240
-0.151,-0.892,0.405,-90.332,-4.150,23.743
-0.141,-0.934,0.468,-83.496,-3.845,20.325
-0.154,-0.983,0.449,-64.331,-2.563,15.503
-0.194,-0.982,0.430,-46.814,-1.282,15.686
-0.194,-0.966,0.389,-36.011,0.000,18.616
-0.152,-0.936,0.379,-30.762,0.305,21.790
-0.099,-0.915,0.408,-24.414,-0.305,21.790
-0.070,-0.918,0.426,-19.348,0.610,19.958
-0.079,-0.942,0.398,-13.184,1.709,16.968
-0.110,-0.950,0.427,-11.658,0.977,15.381
-0.142,-0.952,0.439,-11.597,1.038,15.625
-0.139,-0.940,0.408,-14.160,3.662,17.151
-0.130,-0.943,0.362,-23.254,5.188,18.250
-0.090,-0.919,0.340,-38.086,3.418,17.700
-0.077,-0.886,0.364,-41.382,-1.038,15.381
-0.050,-0.930,0.416,-38.330,-4.395,9.338
-0.067,-0.960,0.438,-26.978,-5.615,4.150
-0.082,-0.952,0.462,-15.625,-5.005,2.136
-0.113,-0.949,0.462,-4.517,-3.906,-0.244
-0.173,-0.961,0.453,2.808,-1.160,-2.319
-0.197,-0.996,0.436,9.216,2.380,-2.502
-0.189,-0.999,0.478,12.756,5.920,0.122
-0.148,-0.974,0.461,14.099,12.329,3.906
-0.100,-0.932,0.401,12.756,19.165,6.409
-0.058,-0.917,0.349,10.559,21.790,5.920
-0.033,-0.930,0.324,15.808,19.043,3.296
-0.032,-0.952,0.345,23.437,12.939,0.305
-0.071,-0.951,0.379,30.762,6.897,-1.648
-0.132,-0.958,0.410,32.227,4.456,-2.197
-0.168,-0.972,0.404,29.541,5.737,-1.526
-0.168,-0.989,0.378,29.297,7.385,0.610
-0.140,-0.988,0.403,26.611,7.751,3.296
-0.118,-1.001,0.442,28.259,9.094,4.822
-0.104,-1.002,0.424,36.926,12.878,5.615
-0.092,-0.985,0.387,43.213,16.907,6.348
-0.065,-0.975,0.318,43.945,18.982,5.920
-0.028,-0.967,0.243,44.983,17.700,4.761
-0.035,-0.952,0.202,41.992,12.268,3.784
-0.083,-0.953,0.197,40.527,3.662,2.502
-0.128,-0.948,0.266,35.767,-4.028,1.953
-0.144,-0.961,0.330,27.954,-7.141,1.953
-0.124,-0.997,0.355,22.156,-5.737,1.892
-0.105,-1.020,0.351,19.348,-2.747,2.319
-0.097,-1.030,0.308,16.602,0.732,3.662
-0.123,-1.037,0.306,15.015,2.930,5.188
-0.129,-1.079,0.366,23.315,4.395,4.700
-0.122,-1.146,0.413,38.086,8.667,3.296
-0.106,-1.172,0.357,47.119,16.602,5.310
-0.063,-1.078,0.212,41.687,24.292,10.681
-0.042,-0.939,0.097,27.832,24.353,15.076
-0.052,-0.851,0.064,18.860,15.808,13.489
-0.083,-0.821,0.091,13.245,5.310,8.911
-0.107,-0.840,0.144,9.399,-2.136,4.211
-0.132,-0.903,0.193,9.521,-6.348,-0.305
-0.164,-0.972,0.242,7.141,-9.033,-2.441
-0.186,-1.004,0.288,6.226,-9.705,-1.831
-0.171,-0.992,0.312,0.854,-7.324,1.282
-0.124,-0.972,0.305,0.610,-3.540,4.395
-0.088,-0.989,0.294,5.188,-0.305,5.554
-0.072,-1.063,0.305,11.536,2.136,5.615
-0.049,-1.141,0.326,22.705,3.784,6.836
-0.043,-1.186,0.354,29.114,5.859,10.071
-0.058,-1.214,0.362,34.485,9.277,13.245
-0.062,-1.211,0.335,36.133,14.038,17.456
-0.044,-1.178,0.294,33.081,18.250,23.743
-0.055,-1.105,0.239,30.151,20.813,30.273
-0.083,-0.968,0.132,23.560,20.203,33.569
-0.073,-0.860,0.065,13.367,13.000,27.771
-0.082,-0.892,0.126,9.827,0.793,15.137
-0.091,-0.889,0.235,9.399,-5.432,6.775
-0.073,-0.853,0.253,4.395,-2.625,2.014
-0.024,-0.835,0.172,0.305,4.883,-2.380
0.000,-0.860,0.115,2.625,7.568,-5.859
0.002,-0.890,0.092,-0.916,5.188,-7.385
0.018,-0.897,0.127,-6.836,0.122,-8.179