aX,aY,aZ,gX,gY,gZ
0.927,0.935,-1.305,66.895,141.785,46.326
0.822,1.014,-1.350,74.280,108.643,30.640
0.775,0.803,-1.217,95.154,70.435,-1.038
0.840,0.563,-1.003,112.732,37.231,-22.522
0.907,0.401,-0.789,110.779,18.188,-29.846
0.903,0.256,-0.614,100.769,9.949,-31.677
0.890,0.124,-0.508,92.041,10.437,-30.396
0.885,0.056,-0.520,83.496,17.090,-23.315
0.897,0.284,-0.516,58.411,27.039,-8.850
0.851,0.515,-0.620,39.978,36.255,-0.488
0.829,0.664,-0.697,47.791,40.710,-0.122
0.794,0.698,-0.733,55.847,38.757,-7.751
0.761,0.655,-0.725,66.406,33.569,-22.156
0.740,0.587,-0.662,76.050,27.954,-35.400
0.723,0.490,-0.583,83.008,22.888,-43.701
0.664,0.166,-0.752,112.427,21.484,-49.927
0.682,-0.092,-0.815,143.433,11.658,-41.687
0.637,0.092,-0.675,130.859,-4.272,-13.123
0.686,0.509,-0.512,96.619,-13.916,15.747
0.682,0.686,-0.490,60.730,-7.263,18.982
0.655,0.539,-0.685,7.263,12.573,2.014
0.619,0.383,-0.817,-49.622,23.987,-6.653
0.607,0.366,-0.771,-87.830,21.851,0.122
0.581,0.423,-0.679,-117.432,19.897,12.146
0.625,0.510,-0.711,-143.372,27.283,22.583
0.666,0.624,-0.834,-159.912,37.415,26.917
0.665,0.688,-1.000,-140.930,40.771,20.386
0.645,0.646,-1.142,-108.093,32.959,5.859
0.620,0.466,-1.144,-100.159,17.761,-10.498
0.615,0.352,-1.089,-99.670,3.784,-18.127
0.630,0.316,-1.027,-96.375,-4.456,-19.531
0.642,0.288,-0.960,-90.088,-7.935,-22.766
0.645,0.196,-0.947,-78.613,-7.996,-29.053
0.662,0.130,-0.900,-71.228,-7.141,-33.081
0.674,0.155,-0.867,-71.472,-4.150,-31.006
0.651,0.223,-0.898,-77.393,4.578,-27.039
0.661,0.296,-0.985,-74.585,14.709,-26.367
0.663,0.345,-1.190,-54.199,22.400,-29.236
0.705,0.412,-1.387,-19.714,21.118,-33.264
0.713,0.428,-1.359,3.296,7.751,-39.368
0.668,0.413,-1.226,14.221,-4.028,-46.753
0.622,0.320,-1.130,15.808,-6.958,-53.528
0.575,0.252,-1.070,8.362,-6.287,-56.824
0.530,0.206,-1.038,0.427,-5.493,-57.129
0.489,0.168,-1.015,1.526,-6.775,-57.190
0.434,0.126,-0.935,4.761,-11.658,-57.190
0.381,0.084,-0.834,8.179,-16.846,-57.373
0.326,0.050,-0.709,13.428,-21.179,-57.068
0.279,0.008,-0.589,13.855,-22.827,-56.702
0.238,-0.014,-0.513,6.897,-20.874,-55.542
0.204,-0.032,-0.488,-8.911,-16.296,-54.749
0.183,-0.037,-0.468,-24.353,-12.207,-53.894
0.154,-0.055,-0.427,-21.545,-10.681,-54.443
0.148,-0.063,-0.378,-10.132,-9.155,-54.932
0.141,-0.074,-0.325,-2.258,-6.409,-55.847
0.111,-0.164,-0.339,7.324,-2.014,-57.068
0.078,-0.249,-0.388,17.212,3.296,-54.504
0.127,-0.297,-0.394,8.057,5.554,-46.143
0.200,-0.331,-0.358,3.418,3.479,-36.621
0.173,-0.378,-0.308,11.475,3.662,-27.588
0.167,-0.496,-0.339,19.714,6.104,-17.700
0.171,-0.528,-0.259,8.484,6.165,-2.014
0.216,-0.395,-0.131,1.831,7.141,19.958
0.255,-0.199,-0.056,7.019,15.930,37.903
0.294,-0.059,-0.069,13.672,31.433,47.546
0.330,0.065,-0.126,9.827,48.523,52.429
0.365,0.195,-0.221,7.629,64.758,54.016
0.384,0.290,-0.327,15.686,77.637,51.758
0.428,0.430,-0.364,20.752,85.815,47.302
0.476,0.647,-0.416,16.174,97.595,42.053
0.525,0.798,-0.643,19.287,116.516,30.640
0.548,0.776,-0.901,34.302,129.883,10.315
0.547,0.620,-1.086,54.077,131.592,-10.498
0.540,0.405,-1.196,76.538,122.864,-26.672
0.535,0.247,-1.158,88.013,106.873,-32.104
0.540,0.194,-1.051,83.313,91.797,-26.855
0.558,0.155,-1.036,82.642,84.717,-17.944
0.571,0.116,-1.121,83.679,81.116,-9.644
0.581,0.073,-1.110,86.243,71.411,-3.052
0.586,0.041,-1.076,78.979,62.683,1.221
0.618,0.120,-1.018,66.956,56.519,7.996
0.637,0.171,-1.004,52.063,55.969,10.864
0.658,0.190,-1.007,44.373,57.251,8.667
0.660,0.131,-1.050,42.786,58.228,3.784
0.660,0.109,-1.083,40.649,56.824,0.732
0.665,0.071,-1.115,40.466,53.284,0.732
0.665,0.066,-1.123,45.898,46.509,1.953
0.674,0.111,-1.116,49.316,38.147,4.822
0.695,0.218,-1.122,51.147,31.311,7.690
0.726,0.323,-1.174,50.171,27.527,7.446
0.744,0.396,-1.265,49.011,25.452,2.930
0.783,0.382,-1.413,44.739,23.254,-3.601
0.834,0.207,-1.531,21.790,20.203,-9.705
0.765,0.324,-1.679,-25.513,13.672,-4.883
0.732,0.354,-1.463,-64.331,-7.202,-8.179
0.716,0.372,-1.293,-58.960,-19.531,-21.301
0.704,0.488,-1.280,-40.222,-13.672,-28.198
0.691,0.552,-1.416,-27.405,-4.883,-34.973
0.711,0.571,-1.401,-29.358,-5.249,-42.175
0.678,0.553,-1.494,-30.762,-4.028,-48.584
0.649,0.510,-1.598,-20.325,-5.737,-55.481
0.607,0.472,-1.648,-12.329,-13.550,-59.753
0.543,0.392,-1.661,-4.211,-24.231,-62.622
0.488,0.330,-1.576,7.568,-36.621,-63.293
0.440,0.315,-1.449,16.846,-47.607,-60.425
0.408,0.342,-1.322,17.395,-53.711,-56.458
0.393,0.386,-1.236,8.789,-54.321,-52.734
0.376,0.381,-1.198,-0.305,-51.514,-51.636
0.363,0.328,-1.164,-7.568,-49.683,-52.734
0.339,0.295,-1.070,-15.381,-52.002,-51.941
0.326,0.268,-0.945,-23.254,-53.589,-50.232
0.311,0.269,-0.819,-31.982,-51.636,-47.668
0.322,0.321,-0.762,-38.086,-44.800,-43.152
0.339,0.384,-0.783,-39.978,-35.034,-39.551
0.341,0.379,-0.799,-40.833,-27.710,-39.795
0.331,0.366,-0.771,-42.297,-24.231,-41.321
0.339,0.353,-0.759,-44.678,-20.081,-40.955
0.340,0.328,-0.809,-44.678,-14.709,-39.490
0.345,0.316,-0.898,-40.222,-12.512,-37.964
0.338,0.295,-0.948,-34.790,-16.418,-36.499
0.316,0.236,-0.932,-31.677,-24.963,-36.560
0.286,0.147,-0.877,-29.846,-34.912,-35.645
0.243,0.034,-0.804,-25.757,-44.983,-32.104
0.191,-0.040,-0.689,-23.071,-55.237,-24.048
0.137,-0.072,-0.536,-23.865,-64.697,-12.268
0.102,-0.071,-0.375,-29.236,-69.458,0.671
0.081,-0.057,-0.265,-41.565,-66.528,14.771
0.062,-0.047,-0.155,-57.007,-60.303,26.855
0.029,-0.073,-0.059,-65.674,-52.856,34.912
0.041,-0.092,0.032,-76.965,-43.823,43.091
0.041,-0.061,0.066,-90.942,-34.424,50.415
0.067,-0.081,0.083,-96.191,-28.442,48.950
0.010,-0.118,0.093,-81.482,-23.621,40.283
0.016,-0.205,0.130,-70.190,-15.381,33.020
0.003,-0.170,0.083,-72.632,-4.395,37.476
-0.032,-0.200,0.094,-73.853,-0.977,43.884
-0.091,-0.263,0.188,-63.843,-3.906,53.467
-0.177,-0.260,0.299,-49.683,-5.981,70.007
-0.274,-0.168,0.391,-53.589,-4.272,90.637
-0.317,-0.026,0.471,-105.286,4.944,111.938
-0.317,0.172,0.530,-158.325,17.151,129.272
-0.331,0.346,0.467,-170.654,26.611,139.038
-0.311,0.532,0.225,-171.631,38.452,140.625
-0.064,0.814,0.075,-135.925,58.350,130.615
0.222,0.784,-0.583,-61.890,112.305,85.632
0.384,0.515,-1.494,-2.319,159.546,25.635
0.507,0.167,-1.925,-12.878,163.086,-19.409
0.709,-0.370,-1.783,-13.550,147.400,-39.063
0.814,-0.472,-1.983,-11.108,154.724,-14.954
0.922,-0.503,-2.231,17.151,153.809,14.038
0.947,-0.668,-2.260,57.190,127.747,35.645
0.911,-0.647,-2.066,71.533,92.041,67.505
0.864,-0.456,-1.773,76.782,59.021,101.196
0.814,-0.177,-1.543,82.886,35.889,122.986
0.745,0.052,-1.328,83.618,19.897,129.761
0.658,0.145,-1.147,80.566,8.240,122.131
0.572,0.186,-0.993,72.876,-0.122,108.093
0.473,0.219,-0.820,61.523,-6.165,91.858
0.374,0.159,-0.674,47.668,-8.362,71.289
0.300,0.114,-0.558,37.048,-6.470,54.016
0.234,0.030,-0.532,54.810,-2.625,39.612
0.180,-0.043,-0.605,90.759,1.892,29.846
0.138,-0.080,-0.788,114.014,3.906,28.564
0.128,-0.028,-0.947,102.783,-2.502,36.011
0.086,0.047,-0.983,73.364,-19.592,45.715
0.051,0.172,-0.934,48.340,-38.879,53.955
0.019,0.272,-0.886,40.649,-51.941,56.763
-0.003,0.293,-0.798,38.574,-60.486,54.016
-0.026,0.237,-0.722,36.804,-62.805,49.805
-0.052,0.137,-0.694,41.443,-59.937,47.607
-0.080,0.038,-0.747,45.898,-54.626,50.476
-0.073,0.008,-0.738,20.874,-51.575,62.744
-0.024,0.044,-0.679,-31.799,-48.950,82.947
0.024,0.138,-0.692,-90.210,-40.588,105.835
0.115,0.179,-0.693,-128.174,-31.982,124.878
0.191,0.158,-0.680,-141.357,-25.879,136.841
0.249,0.138,-0.618,-142.883,-22.400,141.846
0.308,0.172,-0.461,-147.705,-22.827,141.479
0.352,0.208,-0.280,-162.231,-22.095,134.338
0.373,0.255,-0.185,-179.749,-13.794,122.375
0.403,0.328,-0.227,-190.552,-1.587,107.361
0.466,0.464,-0.445,-190.369,9.399,89.661
0.585,0.561,-0.819,-189.392,15.076,69.336
0.707,0.501,-1.199,-182.190,7.568,41.687
0.765,0.306,-1.264,-166.077,-19.653,13.428
0.732,0.042,-1.038,-156.494,-53.223,-3.357
0.617,-0.302,-0.670,-148.315,-75.562,-4.456
0.545,-0.309,-0.284,-153.076,-82.764,23.071
0.490,-0.118,0.029,-170.471,-81.543,60.608
0.427,0.112,0.277,-203.125,-73.730,81.970
0.358,0.284,0.522,-231.812,-56.580,82.764
0.309,0.336,0.674,-241.028,-28.442,66.406
0.272,0.238,0.687,-227.600,6.653,39.185
0.211,0.010,0.528,-194.275,41.809,9.155
0.203,-0.009,0.080,-175.171,74.585,-9.888
0.270,0.111,-0.541,-166.565,95.337,-18.250
0.330,0.160,-1.115,-134.216,90.637,-30.945
0.297,0.189,-1.200,-111.633,56.458,-39.917
0.072,-0.051,-0.536,-96.252,0.549,-52.307
-0.084,-0.149,0.016,-104.431,-33.203,-53.467
-0.125,-0.171,0.324,-199.219,-39.795,-38.452
0.061,-0.056,0.607,-303.284,-38.086,-18.188
0.295,0.067,0.545,-298.157,-16.357,-15.137
0.466,-0.086,0.171,-211.304,14.587,-36.743
0.493,-0.706,0.052,-91.919,30.334,-64.514
0.115,-0.535,-0.112,-38.940,47.607,-54.932
0.029,-0.762,-0.248,-99.304,55.420,-49.561
-0.078,-0.664,-0.131,-171.753,33.386,-49.561
-0.198,-0.307,-0.140,-240.662,34.241,-45.288
-0.293,-0.696,0.072,-191.711,25.757,-73.181
-0.418,-0.895,-0.157,-203.735,51.636,-68.054
-0.253,-0.945,-0.250,-236.755,72.998,-36.316
-0.247,-0.712,-0.385,-145.508,87.219,-7.019
-0.250,-0.347,-0.540,-64.209,104.187,11.963
-0.077,-0.136,-1.101,-90.149,131.287,4.272
-0.132,-0.165,-1.831,-21.851,152.588,-49.561
-0.594,-1.469,-3.088,-80.750,162.476,-119.995
-0.911,-2.291,-2.778,-434.387,87.524,-108.093
-1.098,-2.818,-1.536,-673.889,-5.127,-72.754
-1.453,-3.154,-0.555,-727.905,-20.813,-38.513
-0.849,-2.708,-0.404,-769.409,24.475,-1.099
-0.751,-1.590,-1.022,-861.755,68.665,67.017
-0.227,-1.020,-1.273,-758.240,67.566,97.778
0.105,-0.562,-1.304,-649.902,61.523,92.712
0.400,-1.208,-0.740,-398.376,34.607,5.981
0.294,-3.042,-0.024,-69.946,-12.024,-142.517
0.347,-4.000,0.557,-20.386,-16.663,-233.582
0.228,-4.000,0.689,44.373,2.380,-241.028
0.180,-4.000,0.509,81.116,29.175,-156.250
0.040,-3.525,0.166,44.861,65.552,2.014
-0.038,-1.817,-0.185,19.226,79.651,100.708
-0.240,-0.887,-0.377,-43.945,74.219,108.521
-0.402,-0.176,-0.499,-105.347,53.772,91.553
-0.452,0.354,-0.411,-145.264,11.719,59.937
-0.406,0.380,-0.056,-179.810,-36.804,14.099
-0.339,-0.323,0.642,-189.880,-78.186,-44.739
-0.394,-1.462,1.394,-171.875,-92.712,-102.539
-0.295,-2.305,1.902,-190.002,-65.063,-121.155
-0.218,-2.467,1.747,-168.335,1.587,-92.896
-0.097,-1.839,1.029,-166.443,72.510,-44.312
0.117,-1.224,0.269,-147.156,104.675,-16.357
0.179,-0.783,-0.434,-131.714,107.178,-11.169
0.234,-0.365,-0.954,-93.323,72.693,-19.104
0.096,-0.195,-0.982,-92.834,-2.625,-37.415
-0.069,-0.435,-0.468,-126.648,-93.933,-63.232
-0.240,-0.860,0.215,-148.499,-162.170,-79.529
-0.116,-1.200,0.849,-182.129,-182.495,-68.420
2.303,-3.656,3.574,-231.506,-185.730,-70.374
-0.953,-4.000,4.000,103.821,-199.097,-209.778
-1.429,-3.750,2.488,64.575,152.283,112.000
-0.090,-0.178,-2.043,-350.647,406.860,513.245
0.165,2.167,-3.685,-156.250,249.084,538.635
-0.315,2.738,-2.916,-160.522,-28.137,407.959
-0.683,0.762,-0.792,-283.081,-290.955,185.120
-0.982,-1.346,1.391,-375.610,-440.308,39.734
-0.825,-1.910,1.713,-428.528,-420.715,56.763
0.145,-1.849,1.134,-614.624,-265.747,159.607
-0.156,-0.575,2.167,-374.451,-146.423,157.654
-0.542,0.170,2.206,21.423,9.949,52.490
0.003,0.349,1.507,362.549,96.924,-8.667
0.190,0.339,0.915,286.316,136.536,-80.933
-0.236,-0.033,0.002,255.310,130.188,-132.507
0.608,-0.727,-0.414,143.677,99.792,-153.320
1.479,-1.796,-0.022,107.971,33.447,-174.133
0.772,-1.878,0.683,64.392,-44.434,-123.840
0.392,-0.436,0.898,-32.776,-55.908,-10.437
0.206,-0.215,0.777,-107.666,-35.400,6.531
-0.097,-0.725,1.018,-84.106,-32.532,-20.386
-0.294,-0.929,1.225,-54.443,-21.851,-23.499
-0.206,-0.943,0.986,-52.368,14.282,-14.221
-0.164,-0.904,0.764,-32.349,39.978,-9.827
-0.088,-0.872,0.890,-12.207,46.875,-8.362
-0.093,-0.697,0.925,-4.700,62.500,-5.127
-0.121,-0.554,0.858,6.165,76.111,-7.202
0.016,-0.435,0.670,9.644,82.275,-15.564
0.339,-0.566,0.250,7.324,83.801,-35.522
0.448,-0.799,0.347,-2.441,59.448,-56.519
0.397,-0.781,0.569,-10.498,33.386,-60.730
0.261,-0.758,0.670,-8.667,27.344,-59.937
0.135,-0.838,0.798,-6.531,30.457,-60.364
0.056,-0.862,0.899,-4.883,39.124,-57.556
-0.032,-0.770,0.839,-4.150,53.528,-50.903
-0.057,-0.802,0.761,-12.390,63.232,-47.241
-0.012,-0.879,0.623,-17.822,65.979,-40.283
-0.004,-0.847,0.619,-19.714,60.547,-23.621
-0.004,-0.684,0.691,-15.991,44.800,-5.310
0.062,-0.565,0.706,-12.512,33.203,5.432
0.168,-0.553,0.709,-6.836,26.917,9.094
0.258,-0.619,0.721,-2.502,23.132,6.775
0.300,-0.669,0.618,0.488,23.010,2.136
0.339,-0.806,0.512,0.122,20.386,-3.784
0.314,-0.905,0.460,-0.061,11.963,-8.057
0.193,-0.879,0.562,-0.854,1.099,-7.935
0.131,-0.822,0.701,-5.188,-6.226,-6.348
0.091,-0.765,0.737,-5.859,-4.700,-4.150
0.082,-0.711,0.755,-2.930,-0.854,-1.831
0.109,-0.707,0.750,-1.953,1.953,-0.549
0.082,-0.771,0.734,-2.625,4.150,0.000
0.036,-0.821,0.814,-6.897,5.127,3.418
0.037,-0.705,0.837,-14.893,10.315,11.841
0.115,-0.703,0.728,-20.264,18.250,14.893
0.169,-0.687,0.605,-18.005,19.104,16.541
0.193,-0.642,0.611,-11.963,9.277,19.287
0.186,-0.618,0.701,-5.859,-2.136,21.118
0.145,-0.665,0.763,0.916,-6.592,20.264
0.132,-0.706,0.807,5.127,-6.653,19.165
0.148,-0.748,0.764,5.859,-2.563,18.555
0.159,-0.746,0.692,4.211,0.977,17.883
0.197,-0.813,0.694,1.709,0.977,17.090
0.155,-0.828,0.678,8.423,1.099,16.907
0.143,-0.622,0.707,10.132,0.061,20.508
0.137,-0.716,0.733,-1.465,0.061,16.846
0.122,-0.710,0.773,-5.127,0.000,16.418
0.151,-0.685,0.756,-8.301,0.244,21.545
0.175,-0.651,0.747,-7.568,-0.122,23.865
0.169,-0.718,0.737,-4.456,0.305,21.362
0.167,-0.728,0.756,-6.897,0.916,20.874
0.157,-0.765,0.764,-7.019,2.869,20.081
0.181,-0.855,0.764,-4.333,5.859,20.020
0.205,-0.601,0.694,13.184,7.080,23.865
0.226,-0.584,0.650,-0.427,7.751,24.170
0.172,-0.761,0.708,-8.301,5.493,13.916
0.180,-0.718,0.781,-12.268,2.625,16.663
0.159,-0.637,0.791,-12.085,5.615,20.325
0.171,-0.658,0.783,-7.996,7.751,18.372
0.189,-0.706,0.749,-4.089,10.925,14.832
0.217,-0.681,0.720,-5.188,12.878,13.916
0.207,-0.655,0.678,-6.226,13.672,11.780
0.169,-0.680,0.703,-7.324,11.963,7.935
0.106,-0.733,0.779,-8.850,10.132,6.226
0.218,-0.780,0.859,-13.367,11.719,8.972
0.122,-0.771,0.736,10.620,16.357,13.916
0.194,-0.544,0.682,7.935,17.517,25.635
0.234,-0.626,0.665,-7.996,15.564,19.775
0.222,-0.660,0.715,-11.780,11.597,16.541
0.241,-0.694,0.779,-10.010,8.911,15.259
0.224,-0.708,0.739,-7.141,12.085,14.771
0.234,-0.717,0.781,-4.517,13.855,14.893
0.210,-0.708,0.791,-0.549,16.418,16.113
0.210,-0.726,0.777,1.770,20.264,16.968
0.219,-0.726,0.762,1.648,22.705,19.287
0.201,-0.695,0.797,-0.305,23.743,22.522
0.244,-0.603,0.788,-3.845,25.269,25.757
0.299,-0.491,0.645,-3.479,28.564,25.574
0.376,-0.496,0.546,0.366,25.818,18.311
0.378,-0.577,0.533,3.601,17.456,8.606
0.297,-0.671,0.676,5.615,7.202,1.892
0.249,-0.678,0.758,3.052,4.089,0.427
0.246,-0.673,0.754,1.526,6.470,0.610
0.228,-0.684,0.728,1.587,9.155,0.427
0.327,-0.685,0.746,1.160,9.460,1.038
0.302,-0.649,0.682,1.770,10.986,2.136
0.294,-0.643,0.677,2.747,10.010,1.892
0.276,-0.672,0.732,2.502,6.653,0.916
0.261,-0.681,0.767,2.319,6.470,1.221
0.264,-0.686,0.755,2.747,8.423,2.563
0.279,-0.675,0.703,4.028,10.559,3.662